txtStim,stimFile,AI_Resp,ExplanationFile,n,Accept_Deny_Button_3.response_mean,Accept_Deny_Button_3.response_raw,Accept_Deny_Button_3.response_std,Accept_Deny_Button_3.rt_mean,Accept_Deny_Button_3.rt_raw,Accept_Deny_Button_3.rt_std,Accept_Deny_Button_3.started_mean,Accept_Deny_Button_3.started_raw,Accept_Deny_Button_3.started_std,Accept_Deny_Button_3.stopped_raw,Click_to_Continue_6.started_mean,Click_to_Continue_6.started_raw,Click_to_Continue_6.started_std,Click_to_Continue_6.stopped_raw,ConfidenceSlider_3.response_mean,ConfidenceSlider_3.response_raw,ConfidenceSlider_3.response_std,ConfidenceSlider_3.rt_mean,ConfidenceSlider_3.rt_raw,ConfidenceSlider_3.rt_std,ConfidenceSlider_3.started_mean,ConfidenceSlider_3.started_raw,ConfidenceSlider_3.started_std,ConfidenceSlider_3.stopped_raw,DenySlider_3.response_mean,DenySlider_3.response_raw,DenySlider_3.response_std,DenySlider_3.rt_mean,DenySlider_3.rt_raw,DenySlider_3.rt_std,DenySlider_3.started_mean,DenySlider_3.started_raw,DenySlider_3.started_std,DenySlider_3.stopped_raw,Experimental_Images_3.started_mean,Experimental_Images_3.started_raw,Experimental_Images_3.started_std,Experimental_Images_3.stopped_raw,Feature_Intro_Txt.started_mean,Feature_Intro_Txt.started_raw,Feature_Intro_Txt.started_std,Feature_Intro_Txt.stopped_mean,Feature_Intro_Txt.stopped_raw,Feature_Intro_Txt.stopped_std,Question_Txt_3.started_mean,Question_Txt_3.started_raw,Question_Txt_3.started_std,Question_Txt_3.stopped_raw,trial_end_raw,trial_start_raw,order
Question 1:,stim/Au_ani_00001.jpg,The AI system has determined that the above image is authentic. 
Do you accept or deny this claim?,stim/feature_based_Au_ani_00001.jpg.png,1.0,1.0,1.0,0.0,21.564437866210938,21.564437866210938,0.0,2521.024658203125,2521.024658203125,0.0,,2537.188720703125,2537.188720703125,0.0,,5.0,5.0,0.0,23.64905548095703,23.64905548095703,0.0,2521.024658203125,2521.024658203125,0.0,,3.0,3.0,0.0,26.167842864990234,26.167842864990234,0.0,2521.024658203125,2521.024658203125,0.0,,2521.024658203125,2521.024658203125,0.0,,2510.992919921875,2510.992919921875,0.0,2521.04931640625,2521.04931640625,0.0,2521.024658203125,2521.024658203125,0.0,,'Tuesday, July 26, 2022 10:05:26','Tuesday, July 26, 2022 10:04:59',0.0
Question 2:,stim/Tp_D_CNN_S_B_ind00018_ind00089_00007.tif,The AI system has determined that the above image is authentic. 
Do you accept or deny this claim?,stim/feature_based_Tp_D_CNN_S_B_ind00018_ind00089_00007.tif.png,1.0,1.0,1.0,0.0,23.22065544128418,23.22065544128418,0.0,2547.856689453125,2547.856689453125,0.0,,2565.94921875,2565.94921875,0.0,,5.0,5.0,0.0,25.95475196838379,25.95475196838379,0.0,2547.856689453125,2547.856689453125,0.0,,3.0,3.0,0.0,28.071901321411133,28.071901321411133,0.0,2547.856689453125,2547.856689453125,0.0,,2547.856689453125,2547.856689453125,0.0,,2537.8369140625,2537.8369140625,0.0,2547.888671875,2547.888671875,0.0,2547.856689453125,2547.856689453125,0.0,,'Tuesday, July 26, 2022 10:05:55','Tuesday, July 26, 2022 10:05:26',1.0
Question 3:,stim/Au_ani_00003.jpg,The AI system has determined that the above image is authentic.
Do you accept or deny this claim?,stim/feature_based_Au_ani_00003.jpg.png,1.0,1.0,1.0,0.0,12.169057846069336,12.169057846069336,0.0,2576.8603515625,2576.8603515625,0.0,,2582.031005859375,2582.031005859375,0.0,,5.0,5.0,0.0,13.28880786895752,13.28880786895752,0.0,2576.8603515625,2576.8603515625,0.0,,1.0,1.0,0.0,15.142836570739746,15.142836570739746,0.0,2576.8603515625,2576.8603515625,0.0,,2576.8603515625,2576.8603515625,0.0,,2566.85693359375,2566.85693359375,0.0,2576.88427734375,2576.88427734375,0.0,2576.8603515625,2576.8603515625,0.0,,'Tuesday, July 26, 2022 10:06:11','Tuesday, July 26, 2022 10:05:55',2.0
Question 4:,stim/Au_ani_00005.jpg,The AI system has determined that the above image is authentic.
Do you accept or deny this claim?,stim/feature_based_Au_ani_00005.jpg.png,1.0,2.0,2.0,0.0,27.76719856262207,27.76719856262207,0.0,2592.761962890625,2592.761962890625,0.0,,2614.89990234375,2614.89990234375,0.0,,3.0,3.0,0.0,28.689434051513672,28.689434051513672,0.0,2592.761962890625,2592.761962890625,0.0,,1.0,1.0,0.0,32.11642074584961,32.11642074584961,0.0,2592.761962890625,2592.761962890625,0.0,,2592.761962890625,2592.761962890625,0.0,,2582.75,2582.75,0.0,2592.78564453125,2592.78564453125,0.0,2592.761962890625,2592.761962890625,0.0,,'Tuesday, July 26, 2022 10:06:44','Tuesday, July 26, 2022 10:06:11',3.0
Question 5:,stim/Tp_D_CND_M_N_art00076_art00077_10289.tif,The AI system has determined that the above image is not authentic.
Do you accept or deny this claim?,stim/feature_based_Tp_D_CND_M_N_art00076_art00077_10289.tif.png,1.0,1.0,1.0,0.0,24.00208282470703,24.00208282470703,0.0,2625.612548828125,2625.612548828125,0.0,,2642.05419921875,2642.05419921875,0.0,,4.0,4.0,0.0,24.75984764099121,24.75984764099121,0.0,2625.612548828125,2625.612548828125,0.0,,3.0,3.0,0.0,26.415559768676758,26.415559768676758,0.0,2625.612548828125,2625.612548828125,0.0,,2625.612548828125,2625.612548828125,0.0,,2615.608642578125,2615.608642578125,0.0,2625.636962890625,2625.636962890625,0.0,2625.612548828125,2625.612548828125,0.0,,'Tuesday, July 26, 2022 10:07:11','Tuesday, July 26, 2022 10:06:44',4.0
Question 6:,stim/Tp_D_CND_M_N_art00077_art00076_10290.tif,The AI system has determined that the above image is not authentic.
Do you accept or deny this claim?,stim/feature_based_Tp_D_CND_M_N_art00077_art00076_10290.tif.png,1.0,1.0,1.0,0.0,22.58799934387207,22.58799934387207,0.0,2652.777587890625,2652.777587890625,0.0,,2667.804443359375,2667.804443359375,0.0,,4.0,4.0,0.0,24.17324447631836,24.17324447631836,0.0,2652.777587890625,2652.777587890625,0.0,,3.0,3.0,0.0,25.00757598876953,25.00757598876953,0.0,2652.777587890625,2652.777587890625,0.0,,2652.777587890625,2652.777587890625,0.0,,2642.76171875,2642.76171875,0.0,2652.777587890625,2652.777587890625,0.0,2652.777587890625,2652.777587890625,0.0,,'Tuesday, July 26, 2022 10:07:37','Tuesday, July 26, 2022 10:07:11',5.0
Question 7:,stim/Au_ani_00017.jpg,The AI system has determined that the above image is authentic.
Do you accept or deny this claim?,stim/feature_based_Au_ani_00017.jpg.png,1.0,1.0,1.0,0.0,13.122485160827637,13.122485160827637,0.0,2678.920166015625,2678.920166015625,0.0,,2683.965087890625,2683.965087890625,0.0,,5.0,5.0,0.0,14.21429443359375,14.21429443359375,0.0,2678.920166015625,2678.920166015625,0.0,,1.0,1.0,0.0,15.02736759185791,15.02736759185791,0.0,2678.920166015625,2678.920166015625,0.0,,2678.920166015625,2678.920166015625,0.0,,2668.907958984375,2668.907958984375,0.0,2678.943603515625,2678.943603515625,0.0,2678.920166015625,2678.920166015625,0.0,,'Tuesday, July 26, 2022 10:07:54','Tuesday, July 26, 2022 10:07:37',6.0
Question 8:,stim/Tp_D_CND_M_N_ani00018_sec00096_00138.tif,The AI system has determined that the above image is authentic.
Do you accept or deny this claim?,stim/feature_based_Tp_D_CND_M_N_ani00018_sec00096_00138.tif.png,1.0,2.0,2.0,0.0,21.904727935791016,21.904727935791016,0.0,2695.792236328125,2695.792236328125,0.0,,2711.31640625,2711.31640625,0.0,,4.0,4.0,0.0,23.82965850830078,23.82965850830078,0.0,2695.792236328125,2695.792236328125,0.0,,1.0,1.0,0.0,25.511051177978516,25.511051177978516,0.0,2695.792236328125,2695.792236328125,0.0,,2695.792236328125,2695.792236328125,0.0,,2685.772216796875,2685.772216796875,0.0,2695.792236328125,2695.792236328125,0.0,2695.792236328125,2695.792236328125,0.0,,'Tuesday, July 26, 2022 10:08:20','Tuesday, July 26, 2022 10:07:54',7.0
Question 9:,stim/Au_txt_00005.jpg,The AI system has determined that the above image is not authentic.
Do you accept or deny this claim?,stim/feature_based_Au_txt_00005.jpg.png,1.0,2.0,2.0,0.0,37.950992584228516,37.950992584228516,0.0,2721.98291015625,2721.98291015625,0.0,,2752.16064453125,2752.16064453125,0.0,,4.0,4.0,0.0,38.9333381652832,38.9333381652832,0.0,2721.98291015625,2721.98291015625,0.0,,3.0,3.0,0.0,42.10673904418945,42.10673904418945,0.0,2721.98291015625,2721.98291015625,0.0,,2721.98291015625,2721.98291015625,0.0,,2711.96533203125,2711.96533203125,0.0,2722.008544921875,2722.008544921875,0.0,2721.98291015625,2721.98291015625,0.0,,'Tuesday, July 26, 2022 10:09:03','Tuesday, July 26, 2022 10:08:20',8.0
Question 10:,stim/Tp_D_CND_S_N_ind00078_ind00077_00476.tif,The AI system has determined that the above image is not authentic.
Do you accept or deny this claim?,stim/feature_based_Tp_D_CND_S_N_ind00078_ind00077_00476.tif.png,1.0,2.0,2.0,0.0,32.939910888671875,32.939910888671875,0.0,2764.673583984375,2764.673583984375,0.0,,2790.150390625,2790.150390625,0.0,,3.0,3.0,0.0,34.288917541503906,34.288917541503906,0.0,2764.673583984375,2764.673583984375,0.0,,3.0,3.0,0.0,35.445987701416016,35.445987701416016,0.0,2764.673583984375,2764.673583984375,0.0,,2764.673583984375,2764.673583984375,0.0,,2754.67431640625,2754.67431640625,0.0,2764.69873046875,2764.69873046875,0.0,2764.673583984375,2764.673583984375,0.0,,'Tuesday, July 26, 2022 10:09:39','Tuesday, July 26, 2022 10:09:03',9.0
Question 11:,stim/Au_ani_00021.jpg,The AI system has determined that the above image is authentic.
Do you accept or deny this claim?,stim/feature_based_Au_ani_00021.jpg.png,1.0,1.0,1.0,0.0,23.716142654418945,23.716142654418945,0.0,2800.98876953125,2800.98876953125,0.0,,2818.87353515625,2818.87353515625,0.0,,3.0,3.0,0.0,26.7589054107666,26.7589054107666,0.0,2800.98876953125,2800.98876953125,0.0,,3.0,3.0,0.0,27.859710693359375,27.859710693359375,0.0,2800.98876953125,2800.98876953125,0.0,,2800.98876953125,2800.98876953125,0.0,,2790.9765625,2790.9765625,0.0,2801.01318359375,2801.01318359375,0.0,2800.98876953125,2800.98876953125,0.0,,'Tuesday, July 26, 2022 10:10:08','Tuesday, July 26, 2022 10:09:39',10.0
Question 12:,stim/Tp_D_CND_S_N_txt00028_txt00006_10848.jpg,The AI system has determined that the above image is not authentic.
Do you accept or deny this claim?,stim/feature_based_Tp_D_CND_S_N_txt00028_txt00006_10848.jpg.png,1.0,1.0,1.0,0.0,28.804899215698242,28.804899215698242,0.0,2829.738525390625,2829.738525390625,0.0,,2850.527587890625,2850.527587890625,0.0,,3.0,3.0,0.0,29.971059799194336,29.971059799194336,0.0,2829.738525390625,2829.738525390625,0.0,,3.0,3.0,0.0,30.7546329498291,30.7546329498291,0.0,2829.738525390625,2829.738525390625,0.0,,2829.738525390625,2829.738525390625,0.0,,2819.732666015625,2819.732666015625,0.0,2829.7626953125,2829.7626953125,0.0,2829.738525390625,2829.738525390625,0.0,,'Tuesday, July 26, 2022 10:10:39','Tuesday, July 26, 2022 10:10:08',11.0
Question 13:,stim/Tp_D_CNN_M_N_txt00049_txt00050_10374.tif,The AI system has determined that the above image is authentic.
Do you accept or deny this claim?,stim/feature_based_Tp_D_CNN_M_N_txt00049_txt00050_10374.tif.png,1.0,1.0,1.0,0.0,25.41606903076172,25.41606903076172,0.0,2861.25927734375,2861.25927734375,0.0,,2878.136962890625,2878.136962890625,0.0,,4.0,4.0,0.0,26.02686882019043,26.02686882019043,0.0,2861.25927734375,2861.25927734375,0.0,,3.0,3.0,0.0,26.87250518798828,26.87250518798828,0.0,2861.25927734375,2861.25927734375,0.0,,2861.25927734375,2861.25927734375,0.0,,2851.233642578125,2851.233642578125,0.0,2861.25927734375,2861.25927734375,0.0,2861.25927734375,2861.25927734375,0.0,,'Tuesday, July 26, 2022 10:11:07','Tuesday, July 26, 2022 10:10:39',12.0
Question 14:,stim/Au_txt_00038.jpg,The AI system has determined that the above image is not authentic.
Do you accept or deny this claim?,stim/feature_based_Au_txt_00038.jpg.png,1.0,1.0,1.0,0.0,21.236085891723633,21.236085891723633,0.0,2888.7744140625,2888.7744140625,0.0,,2903.378662109375,2903.378662109375,0.0,,5.0,5.0,0.0,22.544628143310547,22.544628143310547,0.0,2888.7744140625,2888.7744140625,0.0,,3.0,3.0,0.0,24.577333450317383,24.577333450317383,0.0,2888.7744140625,2888.7744140625,0.0,,2888.7744140625,2888.7744140625,0.0,,2878.771728515625,2878.771728515625,0.0,2888.80126953125,2888.80126953125,0.0,2888.7744140625,2888.7744140625,0.0,,'Tuesday, July 26, 2022 10:11:32','Tuesday, July 26, 2022 10:11:07',13.0
Question 15:,stim/Tp_D_CNN_M_N_nat10139_nat00095_11947.jpg.png,The AI system has determined that the above image is not authentic.
Do you accept or deny this claim?,stim/feature_based_Tp_D_CNN_M_N_nat10139_nat00095_11947.jpg.png,1.0,1.0,1.0,0.0,17.247703552246094,17.247703552246094,0.0,2914.039306640625,2914.039306640625,0.0,,2922.93701171875,2922.93701171875,0.0,,5.0,5.0,0.0,18.000944137573242,18.000944137573242,0.0,2914.039306640625,2914.039306640625,0.0,,1.0,1.0,0.0,18.873315811157227,18.873315811157227,0.0,2914.039306640625,2914.039306640625,0.0,,2914.039306640625,2914.039306640625,0.0,,2904.030517578125,2904.030517578125,0.0,2914.063720703125,2914.063720703125,0.0,2914.039306640625,2914.039306640625,0.0,,'Tuesday, July 26, 2022 10:11:52','Tuesday, July 26, 2022 10:11:32',14.0
Question 16:,stim/Au_ani_00023.jpg,The AI system has determined that the above image is authentic.
Do you accept or deny this claim?,stim/feature_based_Au_ani_00023.jpg.png,1.0,1.0,1.0,0.0,15.240413665771484,15.240413665771484,0.0,2933.9189453125,2933.9189453125,0.0,,2942.8447265625,2942.8447265625,0.0,,5.0,5.0,0.0,16.088693618774414,16.088693618774414,0.0,2933.9189453125,2933.9189453125,0.0,,1.0,1.0,0.0,18.90897560119629,18.90897560119629,0.0,2933.9189453125,2933.9189453125,0.0,,2933.9189453125,2933.9189453125,0.0,,2923.9033203125,2923.9033203125,0.0,2933.9189453125,2933.9189453125,0.0,2933.9189453125,2933.9189453125,0.0,,'Tuesday, July 26, 2022 10:12:12','Tuesday, July 26, 2022 10:11:52',15.0
Question 17:,stim/Tp_D_CNN_M_N_sec10110_sec10101_10298.tif.png,The AI system has determined that the above image is not authentic.
Do you accept or deny this claim?,stim/feature_based_Tp_D_CNN_M_N_sec10110_sec10101_10298.tif.png,1.0,1.0,1.0,0.0,17.083446502685547,17.083446502685547,0.0,2953.735595703125,2953.735595703125,0.0,,2964.235595703125,2964.235595703125,0.0,,4.0,4.0,0.0,17.618751525878906,17.618751525878906,0.0,2953.735595703125,2953.735595703125,0.0,,3.0,3.0,0.0,20.471094131469727,20.471094131469727,0.0,2953.735595703125,2953.735595703125,0.0,,2953.735595703125,2953.735595703125,0.0,,2943.724853515625,2943.724853515625,0.0,2953.76904296875,2953.76904296875,0.0,2953.735595703125,2953.735595703125,0.0,,'Tuesday, July 26, 2022 10:12:33','Tuesday, July 26, 2022 10:12:12',16.0
Question 18:,stim/Au_txt_00042.jpg,The AI system has determined that the above image is not authentic.
Do you accept or deny this claim?,stim/feature_based_Au_txt_00042.jpg.png,1.0,1.0,1.0,0.0,22.737180709838867,22.737180709838867,0.0,2975.31689453125,2975.31689453125,0.0,,2990.342529296875,2990.342529296875,0.0,,3.0,3.0,0.0,23.48515510559082,23.48515510559082,0.0,2975.31689453125,2975.31689453125,0.0,,2.0,2.0,0.0,25.008647918701172,25.008647918701172,0.0,2975.31689453125,2975.31689453125,0.0,,2975.31689453125,2975.31689453125,0.0,,2965.30224609375,2965.30224609375,0.0,2975.31689453125,2975.31689453125,0.0,2975.31689453125,2975.31689453125,0.0,,'Tuesday, July 26, 2022 10:12:59','Tuesday, July 26, 2022 10:12:34',17.0

extraInfo
participant,001
session,001
date,2022-07-26_09h26.11.500
expName,CSVTrial
psychopyVersion,2022.1.3
frameRate,60.91458374313905
